aX,aY,aZ,gX,gY,gZ
1.807,-0.230,0.940,41.016,-52.979,30.945
2.223,-0.012,0.970,62.317,-63.965,37.964
2.466,0.239,0.995,63.721,-67.688,38.513
2.506,0.447,1.020,46.814,-60.852,30.396
2.334,0.650,1.053,28.564,-45.715,14.282
2.015,0.813,1.055,24.902,-26.062,-8.728
1.572,0.959,1.059,22.400,-6.226,-33.813
1.118,1.091,1.069,14.343,5.127,-57.373
0.779,1.137,1.034,2.380,9.033,-82.886
0.613,1.055,0.926,-12.817,9.583,-112.183
0.398,0.897,0.800,-27.161,8.484,-134.277
0.013,0.713,0.627,-26.611,7.996,-146.667
-0.512,0.565,0.420,-10.193,8.545,-151.184
-1.254,0.376,0.280,9.705,9.094,-147.339
-2.086,0.323,0.362,28.198,-0.427,-133.789
-2.943,0.486,0.533,51.514,-15.198,-129.089
-3.618,0.334,0.759,40.894,-20.569,-172.791
-3.729,-0.343,1.178,-16.968,-39.673,-240.356
-3.270,-1.224,1.698,-91.858,-86.121,-268.921
-2.232,-1.995,2.052,-141.479,-128.662,-251.465
-1.059,-2.714,1.939,-124.512,-118.774,-218.567
-0.349,-3.198,1.520,-54.810,-51.636,-175.659
-0.227,-3.197,1.133,6.165,16.052,-101.624
-0.436,-2.605,1.088,23.865,49.866,-6.714
-0.603,-1.487,1.192,35.156,53.467,76.050
-0.633,-0.309,1.248,70.251,50.720,127.991
-0.631,0.644,1.217,98.877,58.105,135.620
-0.540,1.220,0.999,95.581,61.829,119.751
-0.471,1.421,0.741,55.115,56.396,90.027
-0.407,1.314,0.596,7.874,40.710,54.260
-0.352,0.986,0.621,-26.489,20.691,17.395
-0.244,0.571,0.687,-42.908,3.662,-13.367
-0.167,0.170,0.729,-43.884,-4.944,-33.813
-0.123,-0.176,0.706,-34.119,-5.371,-44.495
-0.143,-0.455,0.671,-20.508,-1.526,-46.631
-0.197,-0.618,0.663,-8.728,-0.183,-40.344
-0.239,-0.698,0.696,1.160,-1.953,-30.823
-0.237,-0.710,0.747,8.240,-5.310,-20.996
-0.218,-0.673,0.783,12.817,-7.690,-10.742
-0.221,-0.642,0.785,19.165,-6.470,-1.770
-0.208,-0.548,0.746,26.917,-3.235,5.676
-0.232,-0.427,0.687,35.217,0.183,12.634
-0.267,-0.309,0.635,41.321,1.343,16.724
-0.295,-0.223,0.638,40.222,-2.747,18.372
-0.306,-0.161,0.684,31.921,-10.803,18.860
-0.288,-0.143,0.745,21.179,-18.433,16.479
-0.270,-0.182,0.814,12.756,-22.461,13.184
-0.259,-0.242,0.881,5.981,-23.682,11.719
-0.245,-0.307,0.929,-0.366,-22.034,11.414
-0.237,-0.392,0.961,-5.554,-18.127,12.329
-0.211,-0.440,0.956,-7.141,-15.320,14.099
-0.193,-0.479,0.958,-7.568,-12.085,18.250
-0.206,-0.488,0.955,-11.169,-9.216,24.902
-0.258,-0.474,0.962,-16.418,-5.615,31.921
-0.295,-0.461,0.977,-20.630,-2.380,36.987
-0.335,-0.449,0.982,-22.522,0.427,40.100
-0.379,-0.426,0.984,-20.264,2.380,43.762
-0.390,-0.387,0.967,-12.817,4.211,47.119
-0.346,-0.358,0.921,-1.953,6.165,47.058
-0.304,-0.308,0.874,9.583,6.409,47.119
-0.298,-0.251,0.852,18.921,4.639,47.974
-0.315,-0.207,0.865,21.362,1.831,47.241
-0.325,-0.173,0.891,17.578,-2.319,44.556
-0.310,-0.153,0.913,10.254,-6.775,41.626
-0.328,-0.166,0.951,1.038,-8.972,39.429
-0.323,-0.170,0.989,-6.226,-10.376,37.781
-0.266,-0.177,1.002,-6.531,-9.583,36.377
-0.224,-0.209,1.017,-5.310,-6.226,35.645
-0.173,-0.220,1.008,-2.014,-1.282,37.354
-0.151,-0.218,0.977,2.563,3.418,41.077
-0.163,-0.199,0.969,4.028,7.080,43.457
-0.184,-0.183,0.952,2.502,9.644,43.335
-0.212,-0.189,0.952,-2.930,9.583,42.236
-0.214,-0.186,0.952,-11.047,7.385,41.199
-0.191,-0.204,0.965,-16.296,4.211,39.795
-0.164,-0.220,0.991,-17.944,2.136,39.185
-0.151,-0.239,1.034,-17.090,2.197,40.527
-0.124,-0.233,1.061,-10.437,4.211,41.321
-0.083,-0.234,1.064,0.610,8.667,41.199
-0.078,-0.245,1.050,8.057,15.076,40.344
-0.039,-0.248,1.021,10.620,19.958,39.368
-0.031,-0.241,1.019,7.812,23.315,40.161
-0.043,-0.215,1.017,1.343,25.208,41.260
-0.068,-0.201,1.001,-5.493,27.222,40.894
-0.066,-0.199,0.972,-11.047,28.076,38.391
-0.051,-0.219,0.941,-14.771,29.358,35.339
-0.047,-0.244,0.922,-16.174,30.090,33.142
-0.041,-0.266,0.898,-13.123,29.419,31.799
-0.017,-0.288,0.865,-6.958,26.428,29.785
0.026,-0.314,0.852,-3.540,20.691,27.283
0.065,-0.339,0.860,-2.563,14.404,26.428
0.083,-0.341,0.896,-1.892,9.399,26.855
0.108,-0.343,0.928,-1.587,6.897,26.489
0.118,-0.320,0.966,-0.671,6.409,27.039
0.090,-0.303,1.024,-0.671,8.118,29.175
0.114,-0.251,1.052,0.916,9.766,30.823
0.104,-0.219,1.077,3.174,13.306,31.677
0.094,-0.192,1.072,1.587,18.921,29.968
0.111,-0.198,1.016,0.366,24.963,25.757
0.124,-0.223,0.965,-3.662,29.236,20.691
0.133,-0.265,0.934,-10.559,31.067,17.090
0.155,-0.301,0.890,-17.822,30.945,15.381
0.164,-0.321,0.854,-22.034,29.602,15.503
0.134,-0.329,0.828,-21.118,28.015,16.846
0.123,-0.319,0.803,-15.564,25.085,18.921
0.125,-0.293,0.791,-8.667,20.020,21.179
0.110,-0.253,0.820,-1.465,14.038,23.071
0.128,-0.235,0.847,3.662,8.972,21.484
0.164,-0.230,0.879,5.798,5.127,17.944
0.182,-0.233,0.928,4.395,2.502,15.198
0.198,-0.247,0.975,-1.343,2.563,13.000
0.226,-0.240,0.982,-7.080,3.723,11.353
0.230,-0.237,1.008,-9.583,6.897,11.230
0.231,-0.231,1.005,-9.399,10.315,10.559
0.215,-0.220,0.992,-5.859,14.893,9.277
0.202,-0.205,0.972,-4.333,16.785,8.179
0.189,-0.191,0.964,-4.639,16.602,7.935
0.195,-0.196,0.962,-6.104,15.503,6.653
0.221,-0.211,0.965,-7.935,13.794,4.456
1.811,0.488,0.662,84.229,-53.284,42.419
1.836,0.686,0.707,99.365,-59.021,35.950
1.849,0.897,0.734,110.413,-65.002,20.264
1.778,1.102,0.795,121.033,-68.298,-2.502
1.633,1.262,0.820,124.939,-64.392,-31.128
1.390,1.387,0.830,120.422,-56.763,-63.110
1.034,1.443,0.831,111.389,-47.913,-93.933
0.593,1.409,0.798,103.149,-38.940,-122.742
0.049,1.254,0.750,90.698,-24.841,-150.391
-0.605,1.132,0.747,75.378,-7.507,-176.270
-1.306,0.840,0.683,68.665,20.569,-204.041
-2.108,0.432,0.675,51.819,57.922,-214.966
-3.135,0.174,0.564,21.667,87.341,-194.641
-4.000,0.046,0.557,-10.925,96.313,-190.308
-4.000,-0.438,0.656,-41.809,73.853,-238.831
-4.000,-1.327,0.794,-72.144,15.076,-302.307
-3.362,-2.443,1.005,-105.164,-74.219,-331.055
-2.178,-3.717,1.277,-140.320,-157.410,-322.571
-1.381,-4.000,1.821,-183.960,-202.576,-287.964
0.115,-4.000,2.570,-314.575,-212.646,-209.290
1.785,-4.000,2.195,-317.749,-209.045,21.301
0.696,-1.958,2.434,-6.714,-40.771,229.187
-0.997,0.281,2.483,245.117,155.334,255.798
-1.553,2.118,2.035,322.205,211.060,233.643
-1.114,3.007,1.131,229.431,166.748,199.951
-0.695,2.954,0.416,27.771,109.253,140.686
-0.580,2.179,-0.009,-128.723,57.312,64.941
-0.396,1.304,-0.010,-175.903,4.028,-6.531
-0.251,0.554,0.223,-152.893,-34.363,-57.922
-0.274,-0.010,0.516,-104.736,-53.284,-84.900
-0.267,-0.408,0.805,-57.129,-60.486,-93.018
-0.236,-0.675,1.017,-25.391,-60.547,-86.975
-0.193,-0.807,1.153,-15.320,-57.556,-68.604
-0.148,-0.823,1.241,-14.832,-50.720,-44.189
-0.110,-0.741,1.282,-10.803,-35.950,-21.790
-0.130,-0.601,1.202,-0.488,-13.550,-4.761
-0.196,-0.470,1.041,8.118,9.766,6.470
-0.272,-0.360,0.867,8.423,24.780,14.221
-0.312,-0.283,0.724,5.249,27.893,18.555
-0.338,-0.219,0.637,5.432,23.254,20.691
-0.336,-0.172,0.614,11.353,13.733,21.667
-0.324,-0.149,0.663,20.020,2.075,20.203
-0.314,-0.165,0.760,26.001,-7.996,16.541
-0.285,-0.220,0.858,27.466,-15.015,11.902
-0.261,-0.278,0.949,22.095,-18.799,9.705
-0.275,-0.339,1.013,10.864,-18.433,10.742
-0.283,-0.387,1.047,0.305,-15.198,12.390
-0.275,-0.434,1.062,-5.249,-12.207,14.282
-0.311,-0.482,1.077,-7.263,-8.423,18.250
-0.303,-0.513,1.047,-3.418,-5.615,24.048
-0.291,-0.517,0.997,5.432,-3.113,30.518
-0.304,-0.507,0.960,14.771,-1.282,36.560
-0.327,-0.469,0.946,22.095,0.000,42.297
-0.352,-0.401,0.925,26.855,0.366,47.180
-0.359,-0.346,0.891,25.208,0.916,49.194
-0.380,-0.311,0.901,13.977,0.427,49.744
-0.405,-0.269,0.935,-0.488,-2.319,51.270
-0.409,-0.249,0.959,-15.991,-4.211,51.575
-0.414,-0.274,0.984,-29.236,-3.723,50.049
-0.424,-0.296,1.007,-34.302,-2.075,48.767
-0.440,-0.300,1.021,-31.067,1.282,49.438
-0.404,-0.265,0.991,-15.564,4.822,48.889
-0.331,-0.229,0.900,3.723,8.301,47.119
-0.302,-0.211,0.838,12.390,10.681,45.654
-0.277,-0.184,0.804,9.949,8.911,46.265
-0.286,-0.182,0.845,2.014,3.967,47.729
-0.305,-0.175,0.937,-11.597,-1.221,47.913
-0.304,-0.187,1.016,-24.109,-2.869,46.936
-0.292,-0.219,1.090,-32.898,1.099,45.898
-0.284,-0.245,1.132,-36.316,9.888,45.837
-0.245,-0.264,1.117,-29.785,22.400,46.509
-0.171,-0.266,1.041,-14.771,35.339,47.180
-0.078,-0.263,0.934,-0.488,44.739,47.852
-0.019,-0.262,0.853,4.456,50.232,48.767
0.019,-0.257,0.787,2.075,51.270,50.049
0.052,-0.244,0.744,-4.395,47.913,50.049
0.037,-0.239,0.745,-14.893,42.603,48.035
0.009,-0.240,0.763,-23.560,37.109,44.861
-0.018,-0.242,0.804,-27.527,31.677,40.894
-0.026,-0.242,0.850,-27.344,27.588,37.476
-0.019,-0.224,0.895,-23.010,23.987,36.194
0.000,-0.201,0.947,-16.663,21.545,36.438
0.022,-0.185,1.000,-10.315,19.531,36.377
0.043,-0.190,1.049,-5.554,19.592,34.119
0.136,-0.182,1.031,-6.531,18.005,30.273
0.225,-0.201,1.026,-15.320,17.212,26.794
0.278,-0.236,1.000,-29.053,20.325,24.963
0.292,-0.266,0.968,-37.170,25.330,25.269
0.257,-0.287,0.942,-36.255,32.776,26.184
0.182,-0.292,0.909,-28.320,40.710,26.855
0.121,-0.266,0.880,-17.761,45.654,27.954
0.069,-0.230,0.877,-8.301,45.593,28.748
0.089,-0.200,0.872,-2.136,41.016,28.259
0.137,-0.190,0.883,-0.916,35.339,26.794
0.194,-0.191,0.893,-2.686,29.175,24.902
0.252,-0.202,0.924,-5.188,23.010,21.606
0.312,-0.216,0.940,-7.935,20.874,18.738
0.345,-0.224,0.976,-12.939,21.973,16.785
0.375,-0.208,0.969,-14.099,23.193,15.564
0.379,-0.187,0.964,-12.268,28.198,14.954
0.363,-0.164,0.934,-10.193,34.668,14.343
0.368,-0.142,0.887,-8.057,38.330,13.916
0.331,-0.139,0.878,-8.301,39.551,12.695
0.307,-0.127,0.854,-9.766,38.635,10.559
0.336,-0.151,0.857,-11.963,36.011,7.019
0.320,-0.192,0.884,-16.235,32.288,2.991
0.332,-0.225,0.901,-22.583,30.640,0.610
0.339,-0.259,0.908,-26.672,30.884,0.854
0.371,-0.271,0.911,-28.015,31.250,3.296
0.378,-0.267,0.917,-26.245,33.325,7.141
0.386,-0.245,0.884,-20.935,36.438,11.047
0.405,-0.199,0.829,-12.878,39.185,15.198
0.418,-0.146,0.774,-6.470,38.940,18.799
0.429,-0.104,0.740,-2.930,35.583,20.813
0.464,-0.074,0.706,-3.967,30.640,20.691
0.484,-0.059,0.685,-6.775,24.353,18.982
0.480,-0.071,0.708,-11.963,18.799,16.602
0.477,-0.083,0.729,-17.639,13.672,13.184
0.532,-0.088,0.768,-20.081,8.728,11.047
1.629,0.551,0.541,78.735,-97.351,-26.306
1.510,0.684,0.580,99.182,-98.755,-32.349
1.228,0.855,0.628,126.648,-94.055,-39.917
0.823,1.019,0.691,152.954,-82.520,-54.260
0.362,1.106,0.727,165.527,-65.491,-74.707
-0.194,1.108,0.721,156.677,-46.997,-93.140
-0.853,1.124,0.745,127.136,-31.067,-111.389
-1.526,1.076,0.754,89.111,-13.000,-138.245
-2.294,0.958,0.746,43.152,14.160,-176.941
-3.109,0.582,0.733,-10.742,37.903,-228.516
-3.747,0.037,0.760,-67.993,42.664,-278.076
-4.000,-0.576,0.947,-120.300,15.198,-306.580
-4.000,-1.300,1.168,-146.851,-35.889,-319.824
-3.486,-2.149,1.428,-141.785,-99.976,-326.538
-2.387,-3.219,1.689,-119.507,-148.437,-323.975
-1.294,-4.000,1.813,-104.797,-157.715,-309.082
-0.494,-4.000,2.752,-188.232,-149.292,-262.939
1.566,-4.000,2.239,-308.716,-166.992,-92.957
1.233,-2.720,2.063,-102.173,-86.121,184.387
-0.651,-0.564,2.324,178.772,116.882,283.142
-1.692,1.482,2.318,325.073,211.304,263.672
-1.452,2.690,1.702,332.275,198.792,211.731
-0.923,3.023,0.884,166.199,150.757,152.893
-0.783,2.548,0.276,-49.500,99.609,99.609
-0.682,1.637,-0.052,-183.044,46.814,32.837
-0.473,0.784,0.030,-215.942,-6.653,-30.273
-0.389,0.138,0.282,-178.040,-44.983,-70.618
-0.348,-0.259,0.618,-115.540,-64.392,-88.257
-0.303,-0.506,0.918,-52.979,-66.345,-91.125
-0.271,-0.613,1.113,-12.390,-60.547,-81.604
-0.245,-0.657,1.212,-1.465,-52.551,-62.561
-0.218,-0.635,1.260,-6.958,-43.762,-40.649
-0.192,-0.575,1.258,-9.705,-29.419,-22.400
-0.196,-0.524,1.189,-3.967,-8.240,-9.216
-0.231,-0.463,1.045,5.371,13.062,0.671
-0.268,-0.389,0.869,11.963,27.954,9.827
-0.309,-0.325,0.697,13.367,34.180,16.785
-0.364,-0.290,0.576,13.794,32.166,21.545
-0.400,-0.277,0.541,16.418,21.667,24.170
-0.411,-0.272,0.602,22.522,5.005,25.085
-0.391,-0.266,0.734,30.090,-11.780,24.353
-0.380,-0.271,0.903,35.156,-23.987,23.193
-0.341,-0.286,1.032,36.072,-29.236,21.545
-0.320,-0.308,1.126,32.043,-26.184,22.095
-0.327,-0.314,1.176,26.123,-18.250,23.926
-0.320,-0.321,1.176,22.156,-8.057,24.597
-0.296,-0.368,1.103,18.494,2.686,24.658
-0.253,-0.407,0.998,11.719,9.094,25.940
-0.257,-0.438,0.898,2.991,12.817,30.212
-0.289,-0.447,0.830,-5.676,12.573,35.706
-0.371,-0.438,0.827,-12.146,9.277,39.612
-0.456,-0.442,0.857,-15.076,3.418,40.588
-0.491,-0.438,0.890,-15.015,-4.028,40.039
-0.539,-0.445,0.961,-14.465,-10.193,41.382
-0.583,-0.440,1.034,-12.634,-12.695,43.884
-0.557,-0.425,1.065,-3.906,-11.047,46.326
-0.484,-0.421,1.083,7.996,-4.761,48.523
-0.399,-0.382,1.091,15.198,3.052,53.833
-0.320,-0.312,1.048,16.418,10.010,60.791
-0.265,-0.260,0.973,11.780,18.677,63.660
-0.274,-0.237,0.875,0.427,28.992,63.171
-0.293,-0.235,0.788,-13.062,35.400,61.768
-0.335,-0.238,0.760,-26.794,34.973,59.875
-0.367,-0.231,0.768,-34.058,29.480,58.044
-0.365,-0.218,0.805,-32.776,21.545,54.565
-0.352,-0.220,0.859,-26.306,14.954,50.537
-0.303,-0.218,0.896,-20.081,12.024,47.607
-0.236,-0.207,0.942,-17.273,10.986,43.030
-0.161,-0.218,0.970,-17.273,10.986,38.452
-0.092,-0.227,1.003,-21.667,11.230,36.499
-0.023,-0.233,1.051,-27.283,9.155,37.109
0.034,-0.228,1.084,-30.396,9.216,39.429
0.035,-0.211,1.082,-28.809,13.672,40.894
0.044,-0.213,1.063,-22.278,20.386,40.649
0.049,-0.225,1.033,-17.700,30.151,39.551
0.026,-0.234,0.993,-12.878,41.016,39.795
0.025,-0.247,0.928,-6.470,49.500,40.955
0.020,-0.248,0.880,-1.404,53.101,41.077
0.055,-0.230,0.846,2.197,52.490,39.612
0.107,-0.216,0.815,2.930,48.889,36.438
0.139,-0.213,0.801,-0.610,42.847,31.799
0.189,-0.226,0.806,-8.057,34.302,28.503
0.203,-0.231,0.852,-17.029,25.391,26.978
0.225,-0.227,0.914,-22.705,18.433,26.306
0.227,-0.237,0.949,-23.621,16.785,24.109
0.208,-0.257,1.016,-25.513,19.592,21.240
0.208,-0.247,1.041,-21.851,20.447,19.287
0.251,-0.236,1.040,-19.775,23.315,18.188
0.305,-0.226,1.027,-20.386,27.405,17.639
0.292,-0.216,1.018,-20.630,30.029,18.066
0.279,-0.192,1.019,-20.203,36.072,19.470
0.323,-0.185,0.992,-16.479,42.419,20.508
0.306,-0.165,0.976,-18.799,41.809,18.066
0.291,-0.139,0.977,-22.522,42.969,16.357
0.290,-0.145,0.950,-26.184,45.837,13.794
0.300,-0.150,0.928,-29.175,46.936,11.536
0.324,-0.156,0.907,-31.616,45.959,9.949
0.361,-0.151,0.896,-30.762,44.495,10.315
0.403,-0.139,0.872,-27.344,42.358,11.902
0.459,-0.135,0.857,-23.193,41.443,13.611
0.507,-0.115,0.830,-18.921,39.978,15.198
0.530,-0.083,0.809,-12.878,39.490,17.029
0.536,-0.034,0.788,-5.676,39.856,18.555
0.554,0.030,0.765,-1.160,39.001,18.616
0.572,0.087,0.768,-0.671,36.499,16.174
0.592,0.116,0.767,-3.052,33.508,11.108
0.593,0.116,0.780,-7.202,30.701,5.371
0.619,0.099,0.783,-10.986,28.503,0.488
0.653,0.062,0.787,-14.099,25.024,-3.418
0.668,0.012,0.786,-15.686,22.949,-6.104
0.682,-0.035,0.776,-13.367,21.240,-7.141
0.688,-0.065,0.756,-9.155,19.104,-5.493
0.681,-0.098,0.744,-4.395,15.991,-2.686
0.699,-0.097,0.715,1.465,10.010,0.793
0.717,-0.091,0.710,6.104,4.089,3.784
0.736,-0.066,0.719,9.277,-1.770,6.165
0.742,-0.041,0.749,11.169,-7.263,7.507
0.741,-0.021,0.784,11.475,-11.475,8.179
0.739,0.000,0.808,11.414,-14.771,8.240
-2.236,0.785,0.702,71.838,9.033,-129.150
-2.757,0.476,0.748,36.255,14.771,-197.998
-3.024,0.077,0.809,-24.902,-11.719,-239.807
-3.097,-0.426,0.986,-101.074,-63.538,-257.629
-2.806,-1.014,1.299,-163.696,-122.131,-268.250
-2.203,-1.676,1.662,-181.396,-167.297,-273.865
-1.441,-2.353,1.972,-157.959,-174.744,-267.944
-0.729,-2.995,2.082,-111.084,-142.578,-243.713
-0.249,-3.815,2.068,-70.313,-95.459,-192.932
0.273,-4.000,1.945,-70.068,-52.368,-112.183
0.614,-3.019,1.503,-34.180,-14.771,15.015
-0.051,-1.590,1.376,73.669,48.645,138.428
-0.790,-0.107,1.390,175.415,111.206,194.153
-1.099,1.057,1.375,227.478,126.160,190.613
-0.959,1.668,1.160,187.317,109.619,150.146
-0.755,1.708,0.849,80.261,80.872,102.417
-0.597,1.372,0.544,-26.794,50.415,58.838
-0.480,0.840,0.395,-92.712,23.621,18.127
-0.371,0.356,0.406,-110.657,0.610,-12.024
-0.301,-0.004,0.526,-92.712,-14.648,-30.151
-0.291,-0.235,0.674,-59.326,-21.240,-38.757
-0.299,-0.374,0.810,-26.001,-21.362,-39.978
-0.313,-0.451,0.911,-2.563,-19.714,-35.034
-0.323,-0.491,0.955,9.216,-17.761,-26.978
-0.302,-0.501,0.968,13.733,-15.808,-18.921
-0.264,-0.492,0.958,13.855,-12.878,-11.841
-0.268,-0.478,0.942,11.230,-8.423,-4.883
-0.281,-0.454,0.915,8.606,-4.883,2.136
-0.289,-0.427,0.876,4.700,-3.601,7.935
-0.303,-0.414,0.854,-1.038,-3.662,12.512
-0.321,-0.393,0.854,-5.249,-5.249,16.968
-0.314,-0.367,0.849,-6.775,-7.080,19.409
-0.327,-0.366,0.849,-5.371,-7.568,20.386
-0.351,-0.379,0.877,-4.333,-8.240,22.034
-0.387,-0.396,0.917,-1.526,-9.949,25.146
-0.404,-0.390,0.968,3.235,-11.108,27.893
-0.377,-0.399,0.980,9.460,-10.742,28.931
-0.353,-0.392,1.000,14.099,-8.972,30.212
-0.331,-0.356,1.000,17.761,-8.240,32.959
-0.312,-0.320,0.999,17.517,-7.935,34.302
-0.315,-0.314,0.964,9.827,-6.592,34.058
-0.348,-0.343,0.947,-7.080,-5.798,35.400
-0.400,-0.383,0.934,-29.358,-5.798,39.429
-0.457,-0.422,0.943,-47.119,-5.981,43.396
-0.513,-0.466,0.993,-52.246,-4.456,46.997
-0.551,-0.484,1.038,-45.044,-0.793,50.781
-0.546,-0.470,1.056,-28.320,4.883,54.321
-0.539,-0.417,1.086,-7.935,12.085,57.556
-0.498,-0.341,1.078,9.705,17.456,58.899
-0.387,-0.263,1.036,20.691,19.409,58.105
-0.300,-0.221,0.981,17.944,19.287,56.213
-0.265,-0.219,0.922,0.732,19.714,54.688
-0.281,-0.233,0.900,-23.010,20.142,53.223
-0.309,-0.251,0.889,-44.067,20.081,51.758
-0.342,-0.280,0.902,-58.838,20.691,49.500
-0.400,-0.304,0.949,-65.613,21.240,47.913
-0.427,-0.327,0.993,-59.631,23.682,47.119
-0.396,-0.328,1.006,-43.030,26.489,46.387
-0.341,-0.320,1.003,-20.996,29.602,47.119
-0.252,-0.307,0.986,0.854,28.442,49.500
-0.158,-0.280,0.977,13.062,27.161,52.307
-0.116,-0.244,0.987,15.198,27.832,56.274
-0.083,-0.203,0.986,12.024,29.175,59.265
-0.069,-0.174,0.976,4.517,32.288,59.021
-0.093,-0.138,0.987,-4.395,36.804,57.617
-0.091,-0.114,0.978,-9.033,39.673,55.115
-0.046,-0.095,0.976,-8.545,43.579,50.781
0.004,-0.090,0.951,-7.690,47.852,45.532
0.072,-0.100,0.921,-7.874,50.720,41.016
0.115,-0.119,0.893,-10.010,51.514,38.147
0.157,-0.139,0.859,-13.611,51.514,36.682
0.182,-0.159,0.841,-16.113,50.781,36.194
0.156,-0.174,0.855,-18.311,49.194,36.194
0.142,-0.195,0.852,-19.714,51.270,36.316
0.146,-0.165,0.835,-15.320,51.270,37.476
0.199,-0.148,0.821,-6.042,48.706,38.696
0.252,-0.101,0.786,0.366,44.800,38.147
0.312,-0.056,0.779,5.127,39.001,36.682
0.335,-0.052,0.790,3.906,32.532,33.691
0.403,-0.059,0.795,-4.456,25.818,28.625
0.453,-0.086,0.806,-16.052,18.982,22.461
0.478,-0.134,0.836,-26.367,16.052,17.029
0.492,-0.186,0.861,-33.142,16.479,11.902
0.469,-0.215,0.871,-32.532,18.921,7.263
0.480,-0.230,0.874,-27.222,26.917,4.272
0.501,-0.224,0.873,-19.226,32.776,5.432
0.486,-0.204,0.877,-13.000,32.104,7.446
0.494,-0.197,0.879,-13.794,30.640,7.996
0.496,-0.196,0.854,-17.761,27.954,7.751
0.557,-0.219,0.844,-20.996,27.222,8.911
0.577,-0.233,0.827,-23.010,22.583,8.789
0.593,-0.234,0.832,-19.836,19.348,10.193
0.621,-0.204,0.839,-12.329,17.395,12.329
0.648,-0.163,0.841,-4.639,17.212,15.625
0.700,-0.115,0.858,1.282,17.151,19.653
0.727,-0.079,0.869,4.395,13.855,22.217
0.751,-0.046,0.873,4.761,12.878,24.170
0.758,-0.008,0.884,3.723,12.024,24.353
0.780,0.009,0.871,3.479,11.597,23.315
0.791,0.023,0.866,3.235,11.658,21.179
0.801,0.038,0.842,2.686,10.620,19.348
0.806,0.047,0.825,3.906,8.789,18.005
0.781,0.062,0.821,6.226,6.592,17.151
0.742,0.079,0.816,9.521,4.639,16.296
0.703,0.093,0.809,14.099,2.319,14.832
0.685,0.101,0.793,17.273,-1.404,12.817
0.664,0.105,0.788,17.700,-5.859,10.681
0.659,0.098,0.783,16.418,-10.498,7.385
0.668,0.081,0.780,15.198,-15.259,2.441
0.672,0.049,0.793,12.451,-20.386,-1.831
0.677,0.016,0.808,10.315,-25.024,-4.456
0.680,-0.003,0.827,11.414,-28.931,-5.737
0.680,-0.012,0.856,15.808,-30.762,-6.409
0.678,-0.003,0.886,22.827,-31.067,-5.249
0.668,0.036,0.897,30.212,-30.396,-2.686
0.653,0.085,0.895,36.682,-28.992,-2.136
0.627,0.125,0.893,40.894,-27.527,-4.272
0.612,0.149,0.885,41.565,-26.428,-8.423
0.597,0.164,0.869,38.391,-26.672,-13.367
-1.863,0.451,0.707,17.517,39.063,-160.767
-2.530,0.097,0.633,-13.000,44.006,-190.918
-2.950,-0.384,0.683,-64.270,14.709,-206.299
-2.932,-0.936,0.928,-123.718,-48.523,-212.341
-2.434,-1.482,1.323,-159.912,-126.343,-209.473
-1.641,-2.071,1.738,-150.208,-172.729,-208.801
-0.794,-2.643,2.014,-110.229,-166.748,-207.642
-0.277,-3.435,2.286,-75.562,-126.343,-187.866
0.152,-4.000,2.533,-92.896,-91.309,-133.240
0.839,-3.280,2.352,-116.211,-64.575,-30.518
0.706,-1.745,1.965,-38.025,-0.122,96.863
-0.098,-0.433,1.702,85.999,110.107,167.297
-0.804,0.689,1.358,170.898,187.256,172.363
-1.017,1.361,0.916,191.772,197.266,143.860
-0.895,1.534,0.434,130.127,160.339,99.670
-0.726,1.296,0.100,22.461,102.417,57.373
-0.599,0.825,0.015,-71.899,39.612,25.024
-0.456,0.391,0.181,-116.272,-15.625,-0.732
-0.351,0.073,0.453,-109.619,-52.795,-22.400
-0.315,-0.174,0.737,-77.698,-68.359,-42.114
-0.227,-0.343,0.975,-40.649,-69.275,-54.932
-0.175,-0.478,1.131,-12.573,-62.927,-57.373
-0.091,-0.524,1.218,-3.967,-53.406,-48.767
-0.073,-0.528,1.250,-7.202,-40.710,-32.227
-0.103,-0.503,1.225,-11.902,-23.926,-14.771
-0.148,-0.462,1.137,-9.766,-5.676,-2.563
-0.191,-0.412,1.026,0.916,9.583,4.456
-0.216,-0.347,0.907,11.780,19.775,8.789
-0.251,-0.289,0.814,20.752,23.376,12.024
-0.272,-0.226,0.768,25.513,19.897,14.648
-0.279,-0.191,0.769,22.034,11.353,14.832
-0.284,-0.195,0.809,11.169,0.183,13.977
-0.275,-0.223,0.886,-2.197,-10.437,13.306
-0.245,-0.251,0.953,-11.597,-18.127,11.536
-0.255,-0.311,1.032,-12.390,-19.958,10.315
-0.270,-0.360,1.089,-8.057,-18.616,9.338
-0.279,-0.421,1.117,1.099,-14.526,10.254
-0.314,-0.449,1.181,8.545,-9.460,14.221
-0.349,-0.461,1.211,14.465,-3.235,19.470
-0.326,-0.431,1.159,20.752,4.028,23.071
-0.289,-0.414,1.059,26.978,12.146,25.818
-0.288,-0.416,0.943,26.367,19.897,27.771
-0.297,-0.408,0.832,16.785,21.179,31.677
-0.336,-0.412,0.775,-1.770,17.029,37.659
-0.378,-0.416,0.766,-23.499,8.911,44.617
-0.428,-0.398,0.824,-40.649,-0.977,50.842
-0.489,-0.378,0.919,-46.570,-7.629,54.749
-0.537,-0.356,1.014,-38.757,-9.521,55.420
-0.535,-0.314,1.083,-21.729,-8.362,55.603
-0.507,-0.251,1.125,-2.991,-2.747,56.030
-0.477,-0.201,1.118,12.451,2.380,55.603
-0.388,-0.146,1.076,22.034,5.005,53.833
-0.306,-0.109,1.041,21.667,6.714,51.331
-0.291,-0.107,1.038,9.888,9.521,47.607
-0.267,-0.126,1.020,-7.263,12.024,43.518
-0.257,-0.157,1.014,-26.855,14.832,41.443
-0.312,-0.224,1.030,-40.100,20.508,41.626
-0.344,-0.257,1.035,-39.856,26.123,43.030
-0.349,-0.265,1.049,-26.001,33.752,44.434
-0.344,-0.255,1.064,-6.226,43.091,45.898
-0.344,-0.234,1.083,11.414,52.490,48.523
-0.324,-0.199,1.099,22.522,60.974,52.795
-0.266,-0.158,1.079,27.954,66.589,56.763
-0.214,-0.149,1.050,29.175,69.458,60.120
-0.166,-0.146,1.018,22.522,72.083,61.035
-0.145,-0.163,0.972,12.573,72.205,59.448
-0.133,-0.191,0.910,5.859,71.655,58.716
-0.081,-0.204,0.823,1.892,70.068,56.580
-0.019,-0.208,0.766,-0.183,68.665,54.321
0.023,-0.212,0.739,-0.427,67.444,50.720
0.086,-0.208,0.695,-0.793,66.895,44.861
0.164,-0.210,0.656,-1.709,64.514,39.246
0.228,-0.217,0.636,-6.104,61.096,34.973
0.294,-0.222,0.627,-13.367,56.458,32.410
0.345,-0.232,0.621,-20.630,48.523,29.907
0.375,-0.239,0.636,-25.269,38.940,28.137
0.407,-0.252,0.695,-29.297,31.860,26.123
0.408,-0.273,0.741,-34.180,25.208,22.522
0.431,-0.263,0.775,-37.292,20.691,19.836
0.391,-0.272,0.860,-40.222,16.846,18.677
0.389,-0.286,0.922,-41.748,16.174,18.127
0.430,-0.260,0.985,-43.091,15.503,16.052
0.448,-0.236,1.058,-43.640,15.808,13.916
0.566,-0.234,1.069,-42.969,20.691,13.062
0.633,-0.203,1.052,-46.326,26.245,12.024
0.694,-0.206,1.055,-49.255,30.701,10.864
0.728,-0.202,1.009,-49.561,38.147,10.681
0.734,-0.174,0.973,-45.288,47.546,12.390
0.718,-0.149,0.923,-41.321,58.960,14.404
0.681,-0.124,0.864,-40.283,66.895,15.137
0.694,-0.092,0.763,-39.368,68.542,15.076
0.730,-0.076,0.683,-38.635,64.453,14.465
0.780,-0.060,0.632,-37.720,56.885,13.977
0.856,-0.037,0.616,-34.241,48.096,13.977
0.936,-0.011,0.621,-30.640,39.185,14.526
0.998,0.021,0.627,-27.039,33.264,17.273
1.043,0.062,0.617,-23.132,30.396,21.729
1.059,0.110,0.600,-18.860,28.809,26.550
1.067,0.158,0.568,-14.404,27.039,30.396
1.060,0.208,0.535,-11.169,24.475,33.020
1.062,0.251,0.514,-8.972,21.240,33.691
1.058,0.287,0.505,-6.653,16.357,32.654
1.040,0.316,0.505,-3.723,10.559,30.457
1.020,0.335,0.516,-2.136,4.456,27.222
0.984,0.344,0.544,-2.075,-0.610,23.621
0.937,0.337,0.563,-0.488,-5.127,19.897
0.896,0.327,0.578,3.662,-9.460,16.968
0.858,0.318,0.584,8.850,-13.611,14.771
0.823,0.312,0.591,15.076,-18.921,12.207
0.796,0.302,0.600,20.691,-25.146,8.911
0.782,0.292,0.617,25.208,-32.166,4.822
0.787,0.261,0.635,27.527,-39.490,0.061
0.792,0.219,0.675,27.466,-45.959,-4.639
0.813,0.163,0.714,27.954,-51.086,-8.240
0.818,0.128,0.755,29.236,-53.650,-9.094
0.798,0.121,0.794,33.875,-53.467,-9.033
0.780,0.110,0.796,43.213,-51.331,-10.376
0.770,0.109,0.791,50.781,-49.927,-11.841
0.743,0.111,0.780,53.772,-49.927,-12.146
-2.197,1.318,0.795,99.731,65.063,-102.112
-3.428,0.302,0.805,-8.301,77.942,-141.235
-4.000,-0.930,0.950,-131.165,33.142,-155.212
-4.000,-2.081,1.180,-222.717,-58.655,-151.550
-3.369,-3.069,1.743,-262.512,-170.715,-163.330
-1.780,-3.750,2.451,-212.646,-243.530,-184.937
-0.161,-3.943,2.921,-80.383,-219.482,-184.326
0.694,-3.732,2.830,60.547,-103.271,-136.597
0.555,-3.072,2.246,138.550,26.917,-49.744
0.103,-2.109,1.632,140.930,112.305,35.706
-0.314,-1.016,1.157,107.178,146.301,88.440
-0.567,0.072,0.848,63.782,143.555,119.629
-0.723,0.904,0.651,21.057,127.014,125.000
-0.716,1.377,0.489,-16.174,102.539,102.478
-0.694,1.462,0.479,-44.983,66.711,66.223
-0.617,1.200,0.626,-63.477,25.757,27.588
-0.445,0.780,0.750,-63.538,-6.348,-8.972
-0.328,0.290,0.775,-49.194,-19.470,-40.710
-0.193,-0.172,0.759,-29.663,-21.851,-64.697
-0.108,-0.473,0.814,-9.033,-24.353,-71.777
-0.089,-0.521,0.929,2.930,-27.954,-63.599
-0.136,-0.488,1.061,3.540,-29.175,-51.636
-0.161,-0.461,1.149,-2.747,-29.358,-43.640
-0.126,-0.446,1.156,-9.277,-28.381,-38.269
-0.096,-0.462,1.099,-10.132,-22.278,-33.997
-0.110,-0.488,1.011,-8.545,-13.367,-29.053
-0.145,-0.476,0.948,-2.197,-7.751,-22.278
-0.162,-0.418,0.910,5.737,-6.165,-16.052
-0.167,-0.378,0.900,10.620,-6.287,-13.428
-0.181,-0.358,0.905,8.057,-7.690,-12.573
-0.176,-0.358,0.909,-1.099,-11.230,-11.963
-0.167,-0.390,0.921,-12.024,-15.747,-11.719
-0.174,-0.450,0.953,-21.606,-19.592,-10.620
-0.179,-0.495,0.981,-25.818,-21.667,-7.812
-0.192,-0.534,0.995,-25.513,-20.691,-4.150
-0.217,-0.567,1.013,-25.757,-17.151,-0.610
-0.253,-0.589,0.994,-23.499,-11.108,3.052
-0.270,-0.592,0.943,-16.663,-5.554,7.446
-0.284,-0.572,0.880,-8.423,-1.526,12.390
-0.290,-0.538,0.815,-2.197,0.366,17.639
-0.306,-0.505,0.761,0.549,-0.061,22.461
-0.293,-0.481,0.724,1.465,-3.052,25.696
-0.318,-0.457,0.753,5.981,-7.629,26.917
-0.370,-0.386,0.829,13.855,-13.672,28.748
-0.396,-0.317,0.907,24.597,-19.287,30.273
-0.415,-0.261,0.973,29.114,-22.034,30.457
-0.450,-0.227,1.017,25.330,-23.682,30.334
-0.448,-0.212,1.028,20.447,-22.400,31.799
-0.410,-0.193,0.992,14.587,-19.836,33.447
-0.341,-0.198,0.932,4.395,-16.235,34.058
-0.312,-0.210,0.889,-8.911,-14.160,35.522
-0.344,-0.238,0.897,-20.691,-15.137,39.673
-0.360,-0.237,0.920,-27.344,-21.973,42.908
-0.314,-0.225,0.942,-27.954,-29.724,44.128
-0.257,-0.221,0.948,-28.687,-32.166,43.396
-0.240,-0.231,0.957,-32.227,-28.809,42.542
-0.288,-0.246,1.006,-39.124,-19.958,43.640
-0.340,-0.248,1.061,-42.908,-10.254,43.701
-0.369,-0.246,1.060,-38.818,-2.930,40.955
-0.379,-0.214,1.114,-26.306,5.493,37.048
-0.333,-0.182,1.097,-4.883,13.184,32.898
-0.251,-0.175,1.069,5.554,14.832,27.039
-0.157,-0.176,1.057,4.272,15.564,23.499
-0.024,-0.198,1.025,-5.981,17.761,22.156
0.081,-0.246,0.984,-17.639,19.165,22.583
0.138,-0.301,0.947,-26.917,22.888,24.780
0.160,-0.348,0.897,-30.823,29.724,28.320
0.154,-0.367,0.844,-29.419,38.879,31.311
0.093,-0.351,0.825,-22.034,48.462,33.264
0.045,-0.313,0.809,-11.230,53.589,34.180
0.069,-0.261,0.793,-0.916,50.354,35.339
0.112,-0.208,0.806,2.991,42.480,37.537
0.137,-0.161,0.807,2.869,33.691,40.222
0.156,-0.120,0.871,-4.150,25.635,39.612
0.173,-0.096,0.940,-12.512,20.813,36.255
0.199,-0.088,1.003,-16.296,20.081,29.724
0.224,-0.082,1.053,-18.005,22.583,20.752
0.298,-0.075,1.019,-15.808,28.992,12.573
0.357,-0.077,1.010,-15.625,36.194,6.836
0.398,-0.117,0.988,-20.325,41.626,0.977
0.459,-0.153,0.937,-29.968,44.006,-2.747
0.508,-0.195,0.899,-39.185,42.542,-3.296
0.626,-0.241,0.863,-41.687,40.466,-1.648
0.700,-0.235,0.830,-37.781,37.231,2.075
0.733,-0.200,0.850,-28.503,32.715,6.531
0.725,-0.130,0.873,-15.747,31.250,12.207
0.709,-0.031,0.892,-1.526,31.921,18.188
0.669,0.084,0.923,10.803,32.898,21.118
0.640,0.184,0.944,18.799,31.799,20.386
0.626,0.245,0.964,18.555,29.053,14.221
0.623,0.250,0.986,7.324,26.306,3.845
0.647,0.192,0.975,-8.362,25.208,-7.080
0.650,0.094,0.958,-22.522,24.719,-16.907
0.648,-0.012,0.935,-29.785,25.085,-23.315
0.638,-0.102,0.907,-27.893,26.123,-24.597
0.610,-0.150,0.883,-19.104,26.794,-21.057
0.572,-0.169,0.868,-9.033,26.672,-14.587
0.529,-0.158,0.858,0.549,26.123,-7.812
0.476,-0.140,0.856,8.789,24.658,-2.869
0.429,-0.123,0.861,14.160,22.278,0.183
0.391,-0.113,0.864,15.381,19.226,0.793
0.354,-0.124,0.866,13.611,16.602,-0.793
0.311,-0.144,0.870,10.437,13.977,-3.357
0.275,-0.163,0.871,6.958,12.268,-6.592
0.248,-0.194,0.888,2.502,11.292,-10.254
0.217,-0.223,0.899,-1.770,11.108,-13.245
0.197,-0.250,0.899,-3.235,10.498,-15.198
0.184,-0.267,0.903,-2.930,9.949,-15.198
0.183,-0.280,0.907,-1.892,9.155,-13.794
0.196,-0.290,0.909,0.061,8.850,-11.475
0.208,-0.304,0.900,0.977,8.850,-8.423
0.197,-0.309,0.893,1.282,8.362,-4.211
0.191,-0.309,0.880,3.052,7.507,-0.427
0.195,-0.309,0.870,4.700,5.005,2.380
0.219,-0.314,0.878,4.700,1.465,5.188
0.255,-0.311,0.898,3.845,-2.258,8.301
0.306,-0.295,0.938,3.601,-4.517,10.742
0.348,-0.282,0.980,3.052,-5.432,11.658
0.413,-0.276,1.030,0.977,-5.432,12.268
-2.218,-0.025,0.666,52.307,35.095,-133.850
-2.382,-0.344,0.804,-14.587,3.174,-156.738
-2.292,-0.726,1.047,-83.313,-47.180,-176.147
-1.890,-1.180,1.315,-137.146,-99.304,-195.801
-1.312,-1.792,1.560,-163.330,-132.568,-211.121
-0.686,-2.362,1.803,-173.157,-137.390,-216.370
-0.324,-3.246,2.145,-178.833,-126.465,-193.970
0.272,-3.840,2.475,-212.646,-108.643,-148.865
1.005,-3.014,2.165,-202.759,-87.280,-48.035
0.701,-1.644,1.746,-45.105,-9.705,94.543
-0.215,-0.472,1.609,125.305,111.694,179.016
-0.889,0.656,1.420,235.596,187.866,188.660
-1.108,1.400,1.122,274.658,195.496,157.288
-0.920,1.640,0.749,207.703,161.072,103.699
-0.702,1.375,0.397,67.444,107.971,52.063
-0.618,0.797,0.177,-68.054,50.964,17.700
-0.526,0.267,0.143,-147.949,0.977,-5.005
-0.433,-0.140,0.265,-157.654,-37.964,-21.301
-0.380,-0.379,0.469,-120.544,-62.439,-32.776
-0.321,-0.465,0.682,-60.364,-69.641,-41.016
-0.280,-0.447,0.833,0.977,-64.392,-44.373
-0.239,-0.406,0.920,42.908,-57.068,-43.640
-0.174,-0.396,0.985,49.683,-51.514,-38.696
-0.137,-0.400,1.038,26.733,-48.645,-24.719
-0.136,-0.357,1.098,-6.958,-47.424,-6.226
-0.158,-0.327,1.137,-29.907,-43.579,8.667
-0.160,-0.287,1.147,-38.208,-35.156,17.090
-0.184,-0.258,1.129,-29.358,-21.790,20.203
-0.216,-0.249,1.064,-10.071,-7.324,21.423
-0.271,-0.242,1.015,4.822,3.479,22.522
-0.308,-0.232,0.965,14.404,8.545,22.095
-0.336,-0.234,0.936,20.752,9.644,20.447
-0.323,-0.225,0.925,25.757,7.385,18.860
-0.266,-0.193,0.896,26.917,3.235,16.235
-0.272,-0.203,0.897,18.188,-1.099,11.597
-0.298,-0.249,0.891,-0.549,-5.127,8.057
-0.352,-0.313,0.939,-22.827,-10.681,8.118
-0.452,-0.372,0.996,-38.330,-15.686,10.193
-0.485,-0.406,1.010,-40.161,-20.569,9.094
-0.463,-0.455,1.007,-32.776,-21.057,6.287
-0.445,-0.505,1.008,-19.226,-15.930,8.484
-0.432,-0.513,1.013,-2.075,-10.742,16.663
-0.375,-0.449,0.990,20.264,-6.226,28.320
-0.246,-0.321,0.915,45.349,-4.028,37.354
-0.210,-0.230,0.871,54.199,-1.587,38.025
-0.257,-0.171,0.877,37.048,1.892,35.889
-0.311,-0.160,0.870,7.080,1.831,33.936
-0.360,-0.202,0.868,-27.832,-0.610,31.860
-0.414,-0.264,0.876,-60.364,-3.540,30.212
-0.451,-0.330,0.911,-76.660,-5.493,30.396
-0.447,-0.385,0.934,-72.327,-4.822,30.273
-0.381,-0.403,0.946,-51.697,-3.296,30.334
-0.280,-0.374,0.977,-22.339,-1.831,32.104
-0.177,-0.324,1.021,6.104,-0.122,34.302
-0.076,-0.261,1.073,23.071,3.296,36.194
-0.041,-0.213,1.119,24.414,7.812,37.048
-0.057,-0.190,1.145,14.465,14.954,37.842
-0.063,-0.198,1.118,1.282,21.973,37.537
-0.131,-0.232,1.082,-11.047,28.564,37.659
-0.188,-0.275,1.033,-19.531,36.255,37.415
-0.215,-0.290,0.986,-19.104,40.771,35.828
-0.162,-0.309,0.921,-10.559,41.077,32.776
-0.045,-0.315,0.861,-2.014,36.682,29.175
0.101,-0.321,0.825,2.136,29.846,28.198
0.229,-0.311,0.823,1.831,22.888,30.579
0.297,-0.299,0.843,-0.916,18.555,34.973
0.299,-0.297,0.879,-3.784,19.592,39.124
0.236,-0.292,0.913,-5.249,24.963,41.687
0.145,-0.263,0.943,-4.761,31.555,42.725
0.099,-0.213,0.954,-0.488,35.522,42.480
0.075,-0.159,0.952,3.479,36.194,39.063
0.151,-0.105,0.920,5.493,33.997,33.813
0.202,-0.089,0.906,3.113,30.640,29.053
0.259,-0.094,0.897,-3.601,27.283,25.146
0.314,-0.109,0.899,-11.230,24.963,21.729
0.337,-0.143,0.914,-16.663,24.109,19.226
0.340,-0.189,0.927,-19.592,26.306,16.785
0.373,-0.230,0.910,-18.738,28.748,15.503
0.371,-0.254,0.916,-14.832,29.053,16.357
0.399,-0.246,0.896,-7.507,29.419,21.118
0.420,-0.212,0.885,-1.587,30.457,25.757
0.430,-0.165,0.866,2.808,30.884,29.358
0.448,-0.130,0.818,5.188,29.907,30.640
0.459,-0.100,0.794,3.052,26.428,29.663
0.454,-0.065,0.812,-3.296,20.996,26.917
0.453,-0.025,0.861,-9.888,14.160,21.118
0.456,-0.022,0.896,-17.761,10.193,11.902
0.476,-0.037,0.926,-26.062,8.423,4.150
0.489,-0.069,0.947,-30.640,6.531,-1.892
0.474,-0.100,0.973,-32.227,7.446,-4.272
0.485,-0.129,1.001,-29.907,11.780,-4.822
0.482,-0.152,0.997,-20.691,15.625,-3.784
0.469,-0.159,0.980,-12.695,16.296,-2.625
0.464,-0.161,0.959,-5.676,15.930,-0.549
0.447,-0.166,0.942,-2.197,15.137,2.136
0.452,-0.175,0.918,0.427,12.512,4.700
0.461,-0.176,0.913,1.709,8.545,6.531
0.464,-0.168,0.927,1.099,5.493,7.507
0.462,-0.155,0.951,-0.427,4.639,7.629
0.444,-0.140,0.966,-0.916,5.249,7.507
0.424,-0.127,0.979,-1.831,6.836,6.836
0.412,-0.124,0.969,-2.686,8.545,5.737
0.403,-0.134,0.949,-4.150,9.766,4.211
0.401,-0.153,0.931,-5.859,10.376,3.418
0.390,-0.172,0.917,-6.470,10.315,3.540
0.385,-0.196,0.887,-4.944,9.521,4.150
0.377,-0.204,0.869,-2.258,7.996,5.981
0.355,-0.198,0.866,1.587,6.226,8.484
0.352,-0.178,0.859,6.714,3.784,10.681
0.361,-0.149,0.861,10.193,0.793,11.780
0.381,-0.127,0.877,10.864,-1.770,11.719
0.399,-0.125,0.891,8.911,-3.540,10.498
0.435,-0.133,0.912,6.287,-5.188,8.667
0.462,-0.167,0.931,3.418,-6.653,7.141
0.497,-0.184,0.945,1.404,-8.606,7.324
0.515,-0.197,0.957,2.075,-9.644,8.484
0.545,-0.205,0.964,4.761,-9.705,10.132
0.564,-0.199,0.959,9.277,-10.315,12.817
0.591,-0.182,0.950,13.916,-10.498,16.541
-2.279,0.421,0.453,64.636,115.723,-172.913
-2.917,0.024,0.341,3.784,104.004,-208.191
-3.287,-0.468,0.442,-75.928,50.537,-230.713
-3.183,-0.979,0.809,-149.719,-34.180,-240.967
-2.633,-1.528,1.276,-191.467,-124.939,-244.934
-1.760,-2.211,1.726,-196.838,-184.998,-243.591
-0.812,-2.875,2.060,-169.067,-188.171,-238.953
-0.190,-3.939,2.396,-132.324,-154.236,-214.111
0.601,-4.000,2.620,-153.564,-110.168,-154.968
1.365,-3.036,2.019,-134.277,-68.542,-10.559
0.461,-1.227,1.735,32.959,39.856,158.020
-0.771,0.341,1.663,196.899,171.387,213.806
-1.389,1.521,1.410,281.311,217.529,181.580
-1.221,2.012,0.946,242.676,191.223,115.234
-0.879,1.828,0.505,81.177,126.221,57.678
-0.683,1.191,0.195,-90.210,56.885,22.949
-0.531,0.464,0.118,-182.800,0.977,-6.775
-0.388,-0.122,0.227,-189.941,-35.828,-32.227
-0.318,-0.457,0.460,-140.808,-55.298,-47.791
-0.257,-0.605,0.716,-69.275,-58.594,-54.688
-0.243,-0.631,0.955,-9.644,-53.345,-51.941
-0.211,-0.557,1.082,18.127,-48.279,-40.588
-0.182,-0.485,1.125,15.869,-43.152,-25.024
-0.197,-0.470,1.133,-0.732,-33.997,-13.123
-0.203,-0.475,1.077,-16.418,-22.400,-4.822
-0.194,-0.486,1.011,-21.912,-11.292,1.953
-0.187,-0.483,0.946,-19.714,-2.014,9.033
-0.184,-0.457,0.881,-12.512,4.395,17.029
-0.227,-0.406,0.844,-1.221,7.446,25.879
-0.275,-0.337,0.836,13.672,7.507,33.386
-0.291,-0.280,0.837,30.396,5.066,35.950
-0.314,-0.255,0.871,42.358,1.892,35.767
-0.329,-0.222,0.924,48.279,-3.235,34.424
-0.311,-0.204,0.958,50.903,-7.690,31.067
-0.289,-0.205,0.968,48.401,-9.521,26.733
-0.316,-0.190,0.993,34.973,-9.949,22.827
-0.334,-0.219,1.007,7.324,-10.742,17.700
-0.311,-0.337,0.968,-22.217,-12.939,11.719
-0.326,-0.467,0.971,-48.950,-15.137,11.292
-0.348,-0.554,1.002,-64.758,-17.517,15.808
-0.355,-0.614,1.013,-57.800,-17.761,21.423
-0.389,-0.622,1.052,-36.133,-12.756,28.381
-0.438,-0.593,1.084,-10.132,-4.089,36.804
-0.493,-0.527,1.108,13.977,5.432,45.898
-0.505,-0.439,1.096,29.358,13.916,53.528
-0.491,-0.362,1.085,32.043,20.935,58.350
-0.441,-0.320,1.030,24.719,26.489,61.462
-0.396,-0.303,0.992,6.836,30.212,63.354
-0.348,-0.284,0.960,-10.254,31.982,64.392
-0.322,-0.286,0.938,-23.132,32.776,63.416
-0.322,-0.299,0.925,-31.921,34.363,61.157
-0.322,-0.309,0.922,-35.767,36.072,58.838
-0.338,-0.308,0.934,-34.058,38.269,56.824
-0.316,-0.307,0.952,-22.583,39.856,57.739
-0.257,-0.268,0.943,-5.798,39.673,59.204
-0.181,-0.237,0.927,8.789,39.124,59.753
-0.129,-0.213,0.932,14.954,39.612,60.425
-0.049,-0.192,0.920,13.916,37.842,60.547
0.057,-0.160,0.889,7.935,32.166,58.655
0.142,-0.151,0.859,-1.587,27.100,55.420
0.200,-0.147,0.833,-12.146,24.170,51.208
0.217,-0.159,0.810,-20.569,23.499,47.302
0.195,-0.187,0.811,-25.879,26.794,43.701
0.130,-0.210,0.829,-26.428,30.701,41.260
0.112,-0.204,0.831,-20.020,32.349,39.856
0.128,-0.182,0.823,-10.315,31.982,38.513
0.159,-0.155,0.831,-2.930,29.907,36.438
0.191,-0.119,0.845,-0.671,26.428,34.302
0.240,-0.068,0.868,-2.075,21.362,31.738
0.285,-0.036,0.894,-7.507,16.174,27.527
0.323,-0.041,0.922,-16.907,14.587,20.874
0.390,-0.056,0.926,-28.931,15.930,14.282
0.378,-0.101,0.928,-36.377,20.630,10.376
0.364,-0.159,0.934,-44.189,28.931,7.141
0.340,-0.207,0.916,-48.279,35.828,3.723
0.359,-0.238,0.871,-42.297,40.588,2.625
0.371,-0.237,0.795,-33.447,40.649,3.113
0.456,-0.262,0.747,-25.208,37.048,5.859
0.480,-0.276,0.727,-17.700,27.710,10.437
0.519,-0.263,0.715,-8.789,19.409,14.099
0.540,-0.208,0.741,-0.916,9.827,17.578
0.527,-0.128,0.797,4.333,5.127,18.982
0.518,-0.057,0.859,6.470,3.479,17.517
0.500,-0.007,0.915,2.014,2.747,13.733
0.499,0.017,0.958,-8.057,3.479,8.911
0.492,0.022,0.980,-17.151,5.127,3.479
0.510,-0.003,0.972,-24.475,8.606,-2.136
0.520,-0.050,0.941,-28.748,12.695,-6.104
0.533,-0.104,0.924,-30.212,18.127,-7.751
0.540,-0.139,0.889,-28.442,20.752,-7.507
0.525,-0.170,0.838,-21.851,21.912,-5.737
0.523,-0.178,0.806,-12.024,21.606,-2.502
0.503,-0.161,0.775,-2.502,18.799,1.038
0.488,-0.126,0.763,5.066,13.855,3.662
0.456,-0.095,0.779,8.972,8.606,5.188
0.430,-0.067,0.811,8.179,3.662,5.066
0.417,-0.047,0.849,4.944,-0.854,2.808
0.419,-0.046,0.895,-0.244,-4.028,-0.610
0.417,-0.068,0.933,-6.165,-4.822,-3.967
0.421,-0.107,0.944,-10.925,-3.784,-6.226
0.433,-0.138,0.959,-13.611,-1.892,-6.958
0.413,-0.188,0.979,-13.550,2.563,-6.226
0.391,-0.213,0.981,-11.719,4.639,-3.845
0.403,-0.220,0.936,-1.343,3.235,-0.549
0.400,-0.226,0.928,5.188,2.686,1.770
0.392,-0.226,0.931,8.362,2.686,4.761
0.381,-0.228,0.929,10.864,1.221,8.057
0.372,-0.239,0.923,11.902,0.000,10.376
0.372,-0.244,0.928,12.817,-0.549,11.963
0.374,-0.234,0.942,12.329,-0.183,13.672
0.369,-0.222,0.946,11.292,0.427,14.648
0.385,-0.195,0.950,8.789,1.160,13.306
0.395,-0.190,0.941,5.676,1.099,11.780
0.422,-0.186,0.944,2.991,-1.465,10.376
0.456,-0.197,0.940,0.061,-5.066,9.827
0.497,-0.208,0.944,-2.380,-8.301,9.583
0.532,-0.229,0.948,-2.991,-10.498,10.803
0.564,-0.233,0.960,-2.075,-12.451,13.062
0.591,-0.229,0.973,0.061,-13.245,15.808
1.269,0.493,0.809,50.598,-46.265,-2.991
1.267,0.499,0.781,52.612,-43.762,-13.794
1.267,0.524,0.729,59.875,-42.297,-24.048
1.246,0.624,0.651,75.989,-40.894,-33.325
1.245,0.817,0.565,101.807,-37.781,-39.551
1.061,1.071,0.537,133.484,-31.433,-47.546
0.751,1.341,0.523,160.950,-12.695,-67.078
0.268,1.442,0.466,168.701,13.306,-102.173
-0.415,1.347,0.425,131.104,37.537,-140.015
-1.358,1.043,0.365,57.983,51.636,-169.495
-2.380,0.690,0.293,-18.494,45.776,-191.895
-3.261,0.257,0.200,-69.092,21.912,-221.497
-3.856,-0.335,0.270,-96.802,-20.447,-259.644
-3.966,-1.112,0.630,-114.990,-82.581,-292.908
-3.469,-1.893,1.243,-113.708,-157.227,-302.917
-2.457,-2.646,1.920,-83.862,-210.327,-294.128
-1.140,-3.423,2.319,-34.729,-197.388,-281.921
-0.181,-4.000,2.377,14.709,-131.409,-252.686
0.607,-4.000,2.361,-33.142,-68.359,-184.082
1.531,-3.897,1.607,-81.482,-37.415,-21.729
0.257,-1.625,1.526,67.688,63.599,167.419
-1.227,0.559,1.578,216.858,174.500,225.525
-1.620,2.103,1.375,250.610,181.335,193.420
-1.181,2.491,0.842,135.925,122.803,120.239
-0.801,1.930,0.343,-42.175,59.326,52.612
-0.641,1.022,0.195,-148.804,10.986,3.662
-0.401,0.255,0.300,-155.823,-22.095,-30.701
-0.244,-0.250,0.524,-112.122,-35.767,-51.636
-0.154,-0.536,0.771,-53.284,-34.241,-56.274
-0.161,-0.683,0.959,-10.315,-27.100,-46.875
-0.181,-0.660,1.072,-0.549,-22.156,-28.809
-0.235,-0.571,1.159,-7.263,-18.677,-10.925
-0.256,-0.445,1.175,-12.390,-12.573,0.244
-0.262,-0.348,1.117,-12.756,-3.052,5.249
-0.275,-0.295,1.001,-14.160,6.714,7.996
-0.291,-0.258,0.869,-16.785,13.184,10.986
-0.297,-0.227,0.756,-13.306,14.954,13.184
-0.308,-0.211,0.698,-2.380,13.306,13.977
-0.317,-0.202,0.708,10.864,8.240,14.038
-0.320,-0.206,0.758,22.095,0.610,13.428
-0.304,-0.225,0.828,29.236,-7.812,11.353
-0.283,-0.269,0.898,33.203,-14.648,8.911
-0.254,-0.312,0.960,32.837,-19.592,6.958
-0.234,-0.348,1.026,25.940,-22.217,6.165
-0.237,-0.369,1.086,8.789,-22.827,7.568
-0.241,-0.405,1.139,-15.747,-21.118,10.986
-0.252,-0.475,1.141,-39.673,-17.273,14.648
-0.251,-0.567,1.109,-50.293,-11.780,17.456
-0.244,-0.622,1.073,-48.523,-4.150,21.057
-0.225,-0.632,1.030,-33.203,4.028,26.611
-0.242,-0.609,0.981,-10.742,12.207,33.386
-0.274,-0.544,0.944,5.920,17.761,40.283
-0.321,-0.478,0.909,12.817,20.691,45.593
-0.374,-0.406,0.893,9.216,20.264,49.133
-0.422,-0.364,0.898,-3.296,16.846,51.331
-0.449,-0.348,0.910,-20.996,11.353,52.246
-0.446,-0.356,0.919,-36.560,7.446,51.575
-0.396,-0.383,0.908,-42.847,5.188,49.988
-0.363,-0.402,0.922,-37.415,4.028,49.500
-0.359,-0.392,0.958,-25.024,4.272,51.453
-0.343,-0.337,0.973,-11.414,5.005,53.955
-0.300,-0.255,1.019,2.625,5.554,54.443
-0.241,-0.200,1.022,14.343,7.080,52.673
-0.218,-0.179,1.027,11.292,11.108,49.438
-0.215,-0.188,1.017,-1.831,17.456,47.424
-0.226,-0.225,0.989,-16.357,22.949,46.570
-0.262,-0.275,0.964,-29.419,28.381,46.692
-0.271,-0.326,0.951,-37.720,32.776,47.119
-0.274,-0.372,0.944,-38.879,35.706,49.072
-0.264,-0.366,0.945,-31.250,37.598,54.260
-0.187,-0.345,0.957,-12.756,38.452,63.171
-0.117,-0.284,0.979,8.240,37.231,69.275
-0.040,-0.222,0.978,28.137,36.560,73.853
0.048,-0.147,0.943,43.396,35.767,76.538
0.103,-0.082,0.889,51.331,34.607,76.233
0.111,-0.048,0.854,47.302,38.696,73.242
0.094,-0.057,0.801,37.476,45.166,67.932
0.062,-0.095,0.743,27.222,50.110,61.951
0.032,-0.145,0.699,18.250,52.307,56.091
0.041,-0.181,0.664,14.160,49.438,51.331
0.061,-0.187,0.663,14.648,42.419,47.607
0.114,-0.189,0.694,18.005,32.104,44.434
0.174,-0.181,0.739,20.264,21.729,41.260
0.218,-0.191,0.771,19.287,13.977,38.696
0.232,-0.207,0.834,15.259,8.606,36.011
0.294,-0.217,0.861,11.047,4.089,33.447
0.338,-0.223,0.901,6.287,-0.122,31.189
0.362,-0.228,0.915,4.822,0.732,29.480
0.380,-0.239,0.927,7.507,6.409,28.198
0.404,-0.255,0.894,8.667,14.771,27.039
0.428,-0.290,0.839,4.883,22.644,24.170
0.445,-0.349,0.786,-3.906,25.818,18.555
0.487,-0.390,0.747,-15.808,26.245,14.221
0.560,-0.421,0.712,-25.146,22.583,12.085
0.629,-0.435,0.689,-30.273,15.625,12.573
0.664,-0.445,0.705,-30.823,9.827,15.564
0.667,-0.444,0.723,-27.832,5.920,20.142
0.648,-0.412,0.744,-21.484,5.371,24.658
0.601,-0.355,0.767,-12.512,6.104,28.137
0.546,-0.288,0.785,-6.653,6.714,29.602
0.484,-0.214,0.820,-5.737,6.042,28.259
0.419,-0.171,0.872,-9.705,2.930,24.902
0.420,-0.139,0.887,-16.663,-4.761,20.325
0.430,-0.116,0.938,-21.240,-14.587,16.785
0.420,-0.118,0.989,-25.208,-21.484,13.794
0.469,-0.142,1.030,-27.588,-23.010,11.047
0.528,-0.146,1.070,-27.832,-22.400,9.583
0.584,-0.153,1.094,-22.461,-18.250,10.376
0.624,-0.140,1.098,-14.709,-11.230,12.878
0.643,-0.117,1.083,-3.784,-1.770,16.113
0.638,-0.082,1.046,5.798,9.094,19.470
0.603,-0.046,1.002,9.338,18.250,21.667
0.545,-0.017,0.980,7.629,24.231,20.874
0.501,-0.011,0.958,0.427,27.588,16.846
0.484,-0.029,0.926,-10.742,27.893,10.620
0.474,-0.069,0.910,-23.254,24.963,5.188
0.470,-0.119,0.910,-31.982,21.118,0.671
0.475,-0.159,0.901,-33.508,17.029,-1.831
0.488,-0.200,0.896,-29.175,13.306,-2.258
0.194,1.681,0.740,171.143,-46.692,-83.435
-0.703,1.857,0.913,145.569,-6.592,-121.765
-1.813,1.723,1.000,78.186,33.264,-176.270
-3.073,1.234,1.092,-19.958,61.401,-242.126
-4.000,0.414,1.058,-121.582,52.429,-298.828
-4.000,-0.545,0.989,-213.013,-13.000,-336.365
-4.000,-1.534,1.388,-293.701,-126.282,-356.079
-3.823,-2.632,2.143,-308.594,-250.244,-364.136
-2.117,-3.964,2.837,-230.835,-311.707,-364.746
-0.378,-4.000,3.157,-114.502,-259.949,-356.812
1.256,-4.000,3.562,-111.267,-160.828,-290.894
2.611,-4.000,1.979,-127.441,-76.538,-62.256
0.753,-2.438,1.457,105.835,93.201,238.220
-1.847,0.197,1.586,316.589,254.089,342.468
-2.527,2.328,1.547,379.883,251.770,303.345
-1.532,3.402,1.091,262.390,156.860,201.599
-0.855,3.252,0.635,27.527,68.359,118.347
-0.783,2.391,0.385,-153.870,15.137,55.359
-0.569,1.357,0.372,-199.341,-14.709,-16.663
-0.423,0.387,0.504,-176.025,-26.123,-81.116
-0.295,-0.284,0.688,-129.822,-32.104,-108.521
-0.142,-0.689,0.842,-77.881,-32.959,-107.117
-0.051,-0.889,0.945,-45.532,-24.902,-90.271
-0.097,-0.890,1.024,-32.654,-17.029,-59.204
-0.214,-0.752,1.115,-21.973,-13.062,-25.818
-0.284,-0.549,1.208,-3.235,-8.301,-4.211
-0.261,-0.375,1.214,22.339,1.831,4.578
-0.242,-0.249,1.120,43.762,16.785,8.728
-0.252,-0.160,0.962,52.612,31.921,12.146
-0.279,-0.111,0.786,48.279,42.053,12.573
-0.339,-0.107,0.653,35.339,42.297,11.353
-0.377,-0.134,0.599,20.691,32.532,9.521
-0.371,-0.191,0.617,9.033,16.174,6.653
-0.308,-0.255,0.704,0.244,-2.075,4.089
-0.268,-0.340,0.814,-5.371,-14.038,2.075
-0.217,-0.407,0.902,-7.263,-19.470,2.319
-0.186,-0.448,0.972,-3.052,-18.188,3.967
-0.161,-0.475,0.995,5.127,-13.245,6.348
-0.160,-0.483,1.002,14.526,-6.592,10.315
-0.156,-0.468,0.991,21.606,-1.160,14.771
-0.161,-0.466,0.975,23.499,2.686,18.311
-0.199,-0.468,0.964,18.372,4.150,21.118
-0.240,-0.483,0.966,7.874,3.967,22.827
-0.267,-0.510,0.968,-3.479,2.319,25.085
-0.291,-0.556,0.994,-14.709,0.549,29.602
-0.308,-0.592,1.010,-22.583,0.671,35.767
-0.327,-0.593,1.044,-21.973,3.906,42.908
-0.316,-0.559,1.040,-10.010,10.193,50.415
-0.273,-0.494,0.989,8.728,17.517,55.603
-0.278,-0.416,0.955,23.376,24.719,58.777
-0.315,-0.308,0.937,25.391,28.137,60.791
-0.319,-0.220,0.917,17.883,24.658,58.716
-0.302,-0.188,0.908,2.441,18.860,53.162
-0.299,-0.196,0.918,-17.761,13.977,48.950
-0.300,-0.232,0.921,-37.231,10.986,46.814
-0.320,-0.262,0.953,-50.293,9.338,47.058
-0.329,-0.286,0.986,-52.856,12.085,47.607
-0.297,-0.313,1.009,-44.250,18.311,46.875
-0.251,-0.319,1.033,-28.748,25.940,48.035
-0.214,-0.304,1.052,-13.245,32.043,51.392
-0.178,-0.265,1.083,-1.038,35.461,55.359
-0.128,-0.238,1.060,9.094,36.438,59.021
-0.072,-0.210,1.012,13.367,36.804,59.753
-0.046,-0.202,0.957,9.460,37.537,58.716
-0.032,-0.202,0.909,3.235,37.964,57.617
-0.043,-0.215,0.891,-3.906,38.147,56.335
-0.047,-0.227,0.890,-8.362,38.391,54.688
-0.049,-0.223,0.911,-8.240,36.560,53.162
-0.046,-0.210,0.958,-4.883,34.180,50.903
0.005,-0.194,0.971,0.244,32.837,45.837
0.050,-0.190,0.992,2.502,32.898,38.879
0.132,-0.189,1.000,4.395,32.715,34.180
0.217,-0.185,0.983,4.639,28.931,33.203
0.284,-0.170,0.958,0.549,26.855,33.936
0.286,-0.168,0.951,-7.202,29.785,34.790
0.257,-0.171,0.989,-16.052,37.598,33.569
0.229,-0.197,0.988,-21.973,46.875,31.189
0.222,-0.233,0.958,-20.264,54.993,30.579
0.236,-0.244,0.910,-15.198,58.899,33.081
0.259,-0.226,0.858,-11.353,60.181,35.034
0.287,-0.205,0.794,-6.409,59.814,34.119
0.286,-0.185,0.789,-3.418,56.335,31.372
0.306,-0.172,0.778,-2.258,50.537,28.137
0.310,-0.160,0.784,-3.418,43.030,25.208
0.321,-0.162,0.811,-7.935,37.170,22.888
0.312,-0.163,0.848,-11.902,33.020,21.057
0.314,-0.168,0.881,-14.465,32.104,19.958
0.329,-0.176,0.870,-13.916,32.776,18.921
0.377,-0.170,0.851,-7.935,32.776,18.555
0.437,-0.177,0.813,-0.427,32.532,18.616
0.474,-0.180,0.796,5.493,31.799,18.494
0.491,-0.184,0.789,6.836,30.823,18.494
0.509,-0.185,0.767,5.615,28.503,18.311
0.506,-0.176,0.757,5.188,23.987,17.822
0.495,-0.169,0.766,4.639,21.790,15.991
0.510,-0.156,0.762,3.967,20.935,13.672
0.472,-0.135,0.771,3.052,19.531,11.902
0.460,-0.110,0.803,3.296,21.545,10.010
0.465,-0.104,0.818,-1.099,20.386,8.057
0.481,-0.096,0.821,-6.409,20.935,4.333
0.500,-0.105,0.814,-8.850,20.325,-0.122
0.507,-0.122,0.818,-12.146,20.386,-3.723
0.528,-0.143,0.798,-17.395,21.362,-7.141
0.521,-0.160,0.788,-21.790,21.179,-8.484
0.501,-0.177,0.793,-23.804,21.240,-9.155
0.491,-0.186,0.800,-22.949,21.240,-9.705
0.486,-0.196,0.800,-20.569,20.935,-9.155
0.479,-0.194,0.810,-17.578,19.531,-6.836
0.483,-0.187,0.812,-13.977,17.517,-3.906
0.489,-0.177,0.810,-10.071,14.832,-2.136
0.500,-0.174,0.808,-7.141,12.451,-1.953
0.505,-0.175,0.811,-6.104,10.193,-1.892
0.507,-0.177,0.819,-7.568,8.240,-2.014
0.501,-0.179,0.827,-10.071,6.653,-2.502
0.485,-0.186,0.838,-11.230,6.226,-3.601
0.469,-0.197,0.863,-13.245,7.202,-5.371
0.467,-0.209,0.881,-15.747,7.996,-7.202
0.454,-0.222,0.896,-16.357,9.399,-8.545
0.462,-0.237,0.891,-15.625,11.963,-10.010
-3.051,0.502,0.457,19.409,106.323,-241.760
-3.982,-0.024,0.539,-93.567,94.788,-277.222
-4.000,-0.844,0.733,-192.017,29.297,-313.354
-3.982,-1.903,1.170,-257.019,-89.233,-336.792
-2.862,-3.228,1.905,-278.137,-219.666,-339.111
-2.080,-4.000,3.290,-301.575,-291.931,-320.862
0.613,-4.000,3.988,-453.552,-302.490,-260.803
2.882,-4.000,2.897,-403.259,-289.001,-0.732
1.630,-2.181,2.542,-10.376,-47.607,227.661
-0.621,-0.060,2.290,306.396,232.422,260.742
-1.948,1.623,1.655,443.481,324.036,232.727
-1.623,2.580,0.636,371.887,269.104,188.599
-0.979,2.590,0.024,109.192,151.978,127.441
-0.796,1.688,-0.194,-135.010,53.101,57.556
-0.444,0.724,-0.086,-229.492,-18.860,-5.371
-0.242,-0.000,0.161,-197.693,-56.946,-43.579
-0.196,-0.465,0.461,-115.967,-60.730,-61.218
-0.207,-0.745,0.753,-37.659,-51.941,-63.599
-0.129,-0.798,0.971,-1.099,-46.936,-49.072
-0.074,-0.679,1.091,-9.094,-44.373,-21.729
-0.123,-0.490,1.120,-30.151,-34.973,4.272
-0.210,-0.354,1.068,-34.119,-17.700,18.311
-0.243,-0.265,0.968,-24.902,1.038,19.775
-0.257,-0.178,0.844,-15.503,11.902,20.386
-0.257,-0.098,0.734,-10.193,15.869,22.156
-0.251,-0.053,0.655,-6.836,16.113,20.203
-0.276,-0.055,0.644,-4.639,12.085,15.259
-0.284,-0.065,0.690,-2.014,3.601,10.620
-0.264,-0.082,0.778,0.305,-7.202,6.775
-0.251,-0.132,0.890,0.305,-15.381,1.526
-0.204,-0.195,0.974,-0.549,-20.569,-3.540
-0.153,-0.252,1.013,-0.977,-21.545,-6.836
-0.102,-0.290,1.040,-0.610,-18.738,-7.324
-0.082,-0.324,1.039,-0.305,-12.024,-6.104
-0.102,-0.359,1.022,-3.662,-4.822,-4.578
-0.136,-0.384,1.004,-8.728,0.793,-2.808
-0.162,-0.415,0.999,-14.954,2.991,-2.075
-0.170,-0.459,1.001,-20.874,2.625,-1.221
-0.155,-0.481,1.015,-23.926,1.160,0.977
-0.150,-0.484,1.020,-22.278,1.648,4.333
-0.143,-0.475,1.010,-17.761,5.615,7.751
-0.146,-0.463,0.982,-11.536,10.803,10.925
-0.151,-0.440,0.956,-3.479,14.709,14.160
-0.162,-0.418,0.922,5.005,17.578,16.724
-0.168,-0.400,0.893,12.695,18.372,19.043
-0.165,-0.388,0.876,17.639,17.029,19.348
-0.159,-0.392,0.877,17.273,13.611,19.836
-0.147,-0.403,0.905,12.085,9.460,21.545
-0.122,-0.418,0.936,4.333,5.920,23.621
-0.096,-0.425,0.968,-2.075,2.808,24.780
-0.096,-0.440,0.992,-4.211,1.587,26.489
-0.100,-0.443,1.005,-4.395,2.930,28.625
-0.103,-0.459,1.005,0.488,5.249,30.640
-0.108,-0.480,0.982,4.333,7.996,33.325
-0.125,-0.501,0.978,0.793,10.132,36.926
-0.118,-0.510,0.947,-5.432,10.498,40.710
-0.131,-0.512,0.923,-10.681,9.583,44.312
-0.163,-0.522,0.901,-16.296,9.399,47.668
-0.174,-0.529,0.877,-22.156,8.240,50.171
-0.188,-0.519,0.877,-25.391,5.066,53.162
-0.191,-0.490,0.896,-23.437,0.488,57.495
-0.163,-0.450,0.909,-17.212,-2.930,60.608
-0.138,-0.400,0.915,-7.935,-4.395,62.988
-0.120,-0.349,0.917,2.136,-3.235,65.613
-0.109,-0.296,0.906,10.681,-0.366,67.322
-0.114,-0.255,0.901,16.357,3.723,67.383
-0.107,-0.228,0.893,16.357,8.484,66.406
-0.105,-0.218,0.877,13.550,11.963,64.697
-0.089,-0.203,0.853,10.254,12.207,63.049
-0.071,-0.183,0.853,6.165,9.399,61.584
-0.052,-0.169,0.850,0.061,5.188,58.899
-0.008,-0.163,0.843,-7.141,0.916,54.016
0.018,-0.170,0.834,-14.832,-2.625,48.340
0.029,-0.182,0.842,-23.132,-4.578,44.128
0.036,-0.198,0.852,-30.212,-5.310,40.955
0.037,-0.206,0.861,-33.203,-4.211,37.964
0.042,-0.214,0.870,-31.128,-1.892,36.011
0.051,-0.221,0.908,-26.550,0.793,34.607
0.067,-0.207,0.946,-20.508,1.709,34.058
0.073,-0.201,0.981,-13.367,0.732,32.715
0.095,-0.210,0.981,-7.935,0.671,29.358
0.113,-0.204,1.000,-5.188,0.732,26.855
0.101,-0.217,0.987,-2.258,0.854,25.330
0.094,-0.227,0.971,-0.916,2.075,23.682
0.077,-0.228,0.959,-2.136,3.784,22.034
0.064,-0.227,0.924,-1.892,4.944,20.081
0.073,-0.222,0.902,-1.465,5.371,18.127
0.095,-0.225,0.877,-1.831,4.883,15.930
0.109,-0.226,0.877,-2.441,2.563,14.587
0.119,-0.221,0.898,-2.563,-0.793,13.611
0.130,-0.213,0.919,-2.747,-3.845,11.902
0.122,-0.224,0.945,-3.540,-5.066,10.254
0.110,-0.238,0.983,-6.226,-5.920,8.240
0.103,-0.249,1.005,-7.385,-6.836,6.775
0.112,-0.261,1.012,-7.751,-6.104,5.371
0.128,-0.272,0.999,-6.348,-3.296,4.333
0.142,-0.282,0.966,-3.052,-0.122,4.272
0.151,-0.286,0.942,-0.061,4.211,4.944
0.153,-0.287,0.888,3.906,7.874,5.615
0.165,-0.292,0.844,7.263,9.521,6.714
0.167,-0.292,0.808,6.165,8.911,7.263
0.169,-0.292,0.799,2.869,6.531,7.202
0.150,-0.291,0.811,-0.610,3.784,6.165
0.133,-0.292,0.837,-2.991,0.305,4.333
0.117,-0.294,0.879,-4.150,-3.052,2.991
0.111,-0.288,0.904,-4.761,-4.578,2.014
0.083,-0.308,0.965,-7.568,-3.296,0.854
0.080,-0.314,0.979,-7.568,-2.258,1.282
0.098,-0.306,0.980,-4.883,-0.427,2.441
0.106,-0.303,0.962,-3.967,0.793,2.808
0.116,-0.308,0.936,-3.723,1.953,2.686
0.117,-0.320,0.895,-3.418,2.258,2.686
0.111,-0.328,0.876,-2.563,1.587,3.479
0.090,-0.330,0.873,-1.770,0.000,4.395
0.056,-0.325,0.890,-0.488,-2.258,5.127
0.048,-0.323,0.913,0.977,-3.784,5.066
0.054,-0.319,0.935,1.648,-4.639,4.395
0.064,-0.319,0.956,2.441,-3.601,4.822
0.075,-0.320,0.970,2.563,-1.770,6.470
